I_abs(s)[cm^-1]/c[mg/ml]
  0.000000E+00  0.175120E-01
  0.100000E-01  0.170256E-01
  0.200000E-01  0.156552E-01
  0.300000E-01  0.136464E-01
  0.400000E-01  0.113334E-01
  0.500000E-01  0.905671E-02
  0.600000E-01  0.708429E-02
  0.700000E-01  0.556286E-02
  0.800000E-01  0.450883E-02
  0.900000E-01  0.383574E-02
  0.100000E+00  0.340429E-02
  0.110000E+00  0.307528E-02
  0.120000E+00  0.274903E-02
  0.130000E+00  0.238205E-02
  0.140000E+00  0.198144E-02
  0.150000E+00  0.158471E-02
  0.160000E+00  0.123552E-02
  0.170000E+00  0.964785E-03
  0.180000E+00  0.781864E-03
  0.190000E+00  0.675858E-03
  0.200000E+00  0.623444E-03
  0.210000E+00  0.598549E-03
  0.220000E+00  0.579926E-03
  0.230000E+00  0.554925E-03
  0.240000E+00  0.519442E-03
  0.250000E+00  0.475595E-03
  0.260000E+00  0.428600E-03
  0.270000E+00  0.384095E-03
  0.280000E+00  0.346432E-03
  0.290000E+00  0.317866E-03
  0.300000E+00  0.298449E-03
  0.310000E+00  0.286352E-03
  0.320000E+00  0.278519E-03
  0.330000E+00  0.271489E-03
  0.340000E+00  0.262273E-03
  0.350000E+00  0.249100E-03
  0.360000E+00  0.231736E-03
  0.370000E+00  0.211415E-03
  0.380000E+00  0.190266E-03
  0.390000E+00  0.170525E-03
  0.400000E+00  0.153827E-03
  0.410000E+00  0.140793E-03
  0.420000E+00  0.131081E-03
  0.430000E+00  0.123739E-03
  0.440000E+00  0.117738E-03
  0.450000E+00  0.112377E-03
  0.460000E+00  0.107462E-03
  0.470000E+00  0.103170E-03
  0.480000E+00  0.997767E-04
  0.490000E+00  0.973881E-04
  0.500000E+00  0.958232E-04
