I_abs(s)[cm^-1]/c[mg/ml]
  0.000000E+00  0.139772E-01
  0.100000E-01  0.136029E-01
  0.200000E-01  0.125466E-01
  0.300000E-01  0.109909E-01
  0.400000E-01  0.918767E-02
  0.500000E-01  0.739677E-02
  0.600000E-01  0.582824E-02
  0.700000E-01  0.460393E-02
  0.800000E-01  0.374721E-02
  0.900000E-01  0.319994E-02
  0.100000E+00  0.285745E-02
  0.110000E+00  0.260844E-02
  0.120000E+00  0.236707E-02
  0.130000E+00  0.208952E-02
  0.140000E+00  0.177362E-02
  0.150000E+00  0.144584E-02
  0.160000E+00  0.114291E-02
  0.170000E+00  0.895493E-03
  0.180000E+00  0.718474E-03
  0.190000E+00  0.609293E-03
  0.200000E+00  0.552431E-03
  0.210000E+00  0.526835E-03
  0.220000E+00  0.512889E-03
  0.230000E+00  0.496926E-03
  0.240000E+00  0.472549E-03
  0.250000E+00  0.439562E-03
  0.260000E+00  0.401594E-03
  0.270000E+00  0.363605E-03
  0.280000E+00  0.330022E-03
  0.290000E+00  0.303650E-03
  0.300000E+00  0.285321E-03
  0.310000E+00  0.274033E-03
  0.320000E+00  0.267439E-03
  0.330000E+00  0.262521E-03
  0.340000E+00  0.256347E-03
  0.350000E+00  0.246804E-03
  0.360000E+00  0.233037E-03
  0.370000E+00  0.215609E-03
  0.380000E+00  0.196174E-03
  0.390000E+00  0.176866E-03
  0.400000E+00  0.159599E-03
  0.410000E+00  0.145506E-03
  0.420000E+00  0.134778E-03
  0.430000E+00  0.126807E-03
  0.440000E+00  0.120630E-03
  0.450000E+00  0.115380E-03
  0.460000E+00  0.110593E-03
  0.470000E+00  0.106228E-03
  0.480000E+00  0.102484E-03
  0.490000E+00  0.995454E-04
  0.500000E+00  0.973858E-04
