I_abs(s)[cm^-1]/c[mg/ml]
  0.000000E+00  0.150227E-01
  0.100000E-01  0.146121E-01
  0.200000E-01  0.134433E-01
  0.300000E-01  0.116900E-01
  0.400000E-01  0.960189E-02
  0.500000E-01  0.745391E-02
  0.600000E-01  0.549448E-02
  0.700000E-01  0.390338E-02
  0.800000E-01  0.276851E-02
  0.900000E-01  0.208455E-02
  0.100000E+00  0.177151E-02
  0.110000E+00  0.170584E-02
  0.120000E+00  0.175538E-02
  0.130000E+00  0.180902E-02
  0.140000E+00  0.179528E-02
  0.150000E+00  0.168739E-02
  0.160000E+00  0.149661E-02
  0.170000E+00  0.125791E-02
  0.180000E+00  0.101359E-02
  0.190000E+00  0.799377E-03
  0.200000E+00  0.636194E-03
  0.210000E+00  0.528286E-03
  0.220000E+00  0.466506E-03
  0.230000E+00  0.434535E-03
  0.240000E+00  0.415411E-03
  0.250000E+00  0.396356E-03
  0.260000E+00  0.370963E-03
  0.270000E+00  0.338888E-03
  0.280000E+00  0.303748E-03
  0.290000E+00  0.270455E-03
  0.300000E+00  0.242970E-03
  0.310000E+00  0.223091E-03
  0.320000E+00  0.210366E-03
  0.330000E+00  0.202781E-03
  0.340000E+00  0.197842E-03
  0.350000E+00  0.193451E-03
  0.360000E+00  0.188417E-03
  0.370000E+00  0.182435E-03
  0.380000E+00  0.175802E-03
  0.390000E+00  0.168997E-03
  0.400000E+00  0.162348E-03
  0.410000E+00  0.155961E-03
  0.420000E+00  0.149799E-03
  0.430000E+00  0.143845E-03
  0.440000E+00  0.138266E-03
  0.450000E+00  0.133404E-03
  0.460000E+00  0.129677E-03
  0.470000E+00  0.127362E-03
  0.480000E+00  0.126448E-03
  0.490000E+00  0.126538E-03
  0.500000E+00  0.126927E-03
