I_abs(s)[cm^-1]/c[mg/ml]
  0.000000E+00  0.181913E-01
  0.100000E-01  0.179337E-01
  0.200000E-01  0.171828E-01
  0.300000E-01  0.159990E-01
  0.400000E-01  0.144758E-01
  0.500000E-01  0.127272E-01
  0.600000E-01  0.108742E-01
  0.700000E-01  0.903224E-02
  0.800000E-01  0.729965E-02
  0.900000E-01  0.575000E-02
  0.100000E+00  0.442846E-02
  0.110000E+00  0.335226E-02
  0.120000E+00  0.251458E-02
  0.130000E+00  0.189073E-02
  0.140000E+00  0.144521E-02
  0.150000E+00  0.113855E-02
  0.160000E+00  0.932893E-03
  0.170000E+00  0.795796E-03
  0.180000E+00  0.702114E-03
  0.190000E+00  0.634256E-03
  0.200000E+00  0.581223E-03
  0.210000E+00  0.536992E-03
  0.220000E+00  0.498785E-03
  0.230000E+00  0.465525E-03
  0.240000E+00  0.436756E-03
  0.250000E+00  0.412008E-03
  0.260000E+00  0.390586E-03
  0.270000E+00  0.371605E-03
  0.280000E+00  0.354151E-03
  0.290000E+00  0.337471E-03
  0.300000E+00  0.321065E-03
  0.310000E+00  0.304693E-03
  0.320000E+00  0.288337E-03
  0.330000E+00  0.272120E-03
  0.340000E+00  0.256215E-03
  0.350000E+00  0.240762E-03
  0.360000E+00  0.225859E-03
  0.370000E+00  0.211554E-03
  0.380000E+00  0.197871E-03
  0.390000E+00  0.184837E-03
  0.400000E+00  0.172504E-03
  0.410000E+00  0.160964E-03
  0.420000E+00  0.150349E-03
  0.430000E+00  0.140783E-03
  0.440000E+00  0.132384E-03
  0.450000E+00  0.125210E-03
  0.460000E+00  0.119238E-03
  0.470000E+00  0.114365E-03
  0.480000E+00  0.110402E-03
  0.490000E+00  0.107104E-03
  0.500000E+00  0.104189E-03
