I_abs(s)[cm^-1]/c[mg/ml]
  0.000000E+00  0.183875E-01
  0.100000E-01  0.181371E-01
  0.200000E-01  0.174087E-01
  0.300000E-01  0.162632E-01
  0.400000E-01  0.147943E-01
  0.500000E-01  0.131145E-01
  0.600000E-01  0.113416E-01
  0.700000E-01  0.958491E-02
  0.800000E-01  0.793460E-02
  0.900000E-01  0.645518E-02
  0.100000E+00  0.518337E-02
  0.110000E+00  0.413012E-02
  0.120000E+00  0.328569E-02
  0.130000E+00  0.262624E-02
  0.140000E+00  0.212065E-02
  0.150000E+00  0.173630E-02
  0.160000E+00  0.144328E-02
  0.170000E+00  0.121670E-02
  0.180000E+00  0.103754E-02
  0.190000E+00  0.892181E-03
  0.200000E+00  0.771476E-03
  0.210000E+00  0.669522E-03
  0.220000E+00  0.582584E-03
  0.230000E+00  0.508284E-03
  0.240000E+00  0.445013E-03
  0.250000E+00  0.391575E-03
  0.260000E+00  0.346970E-03
  0.270000E+00  0.310252E-03
  0.280000E+00  0.280404E-03
  0.290000E+00  0.256354E-03
  0.300000E+00  0.236938E-03
  0.310000E+00  0.220998E-03
  0.320000E+00  0.207455E-03
  0.330000E+00  0.195415E-03
  0.340000E+00  0.184245E-03
  0.350000E+00  0.173593E-03
  0.360000E+00  0.163346E-03
  0.370000E+00  0.153591E-03
  0.380000E+00  0.144505E-03
  0.390000E+00  0.136280E-03
  0.400000E+00  0.129079E-03
  0.410000E+00  0.122979E-03
  0.420000E+00  0.118001E-03
  0.430000E+00  0.114102E-03
  0.440000E+00  0.111197E-03
  0.450000E+00  0.109184E-03
  0.460000E+00  0.107943E-03
  0.470000E+00  0.107325E-03
  0.480000E+00  0.107147E-03
  0.490000E+00  0.107188E-03
  0.500000E+00  0.107197E-03
