I_abs(s)[cm^-1]/c[mg/ml]
  0.000000E+00  0.142359E-01
  0.100000E-01  0.140509E-01
  0.200000E-01  0.135117E-01
  0.300000E-01  0.126619E-01
  0.400000E-01  0.115680E-01
  0.500000E-01  0.103109E-01
  0.600000E-01  0.897612E-02
  0.700000E-01  0.764404E-02
  0.800000E-01  0.638254E-02
  0.900000E-01  0.524172E-02
  0.100000E+00  0.425189E-02
  0.110000E+00  0.342446E-02
  0.120000E+00  0.275507E-02
  0.130000E+00  0.222805E-02
  0.140000E+00  0.182122E-02
  0.150000E+00  0.151028E-02
  0.160000E+00  0.127219E-02
  0.170000E+00  0.108722E-02
  0.180000E+00  0.939937E-03
  0.190000E+00  0.819137E-03
  0.200000E+00  0.717283E-03
  0.210000E+00  0.629614E-03
  0.220000E+00  0.553276E-03
  0.230000E+00  0.486613E-03
  0.240000E+00  0.428631E-03
  0.250000E+00  0.378657E-03
  0.260000E+00  0.336133E-03
  0.270000E+00  0.300505E-03
  0.280000E+00  0.271114E-03
  0.290000E+00  0.247211E-03
  0.300000E+00  0.227914E-03
  0.310000E+00  0.212275E-03
  0.320000E+00  0.199335E-03
  0.330000E+00  0.188214E-03
  0.340000E+00  0.178197E-03
  0.350000E+00  0.168785E-03
  0.360000E+00  0.159697E-03
  0.370000E+00  0.150876E-03
  0.380000E+00  0.142410E-03
  0.390000E+00  0.134471E-03
  0.400000E+00  0.127261E-03
  0.410000E+00  0.120946E-03
  0.420000E+00  0.115648E-03
  0.430000E+00  0.111424E-03
  0.440000E+00  0.108271E-03
  0.450000E+00  0.106144E-03
  0.460000E+00  0.104962E-03
  0.470000E+00  0.104604E-03
  0.480000E+00  0.104901E-03
  0.490000E+00  0.105643E-03
  0.500000E+00  0.106576E-03
