I_abs(s)[cm^-1]/c[mg/ml]
  0.000000E+00  0.185601E-01
  0.100000E-01  0.181584E-01
  0.200000E-01  0.170144E-01
  0.300000E-01  0.152960E-01
  0.400000E-01  0.132377E-01
  0.500000E-01  0.110900E-01
  0.600000E-01  0.906715E-02
  0.700000E-01  0.731349E-02
  0.800000E-01  0.589151E-02
  0.900000E-01  0.479159E-02
  0.100000E+00  0.395733E-02
  0.110000E+00  0.331509E-02
  0.120000E+00  0.279839E-02
  0.130000E+00  0.236174E-02
  0.140000E+00  0.198272E-02
  0.150000E+00  0.165574E-02
  0.160000E+00  0.138249E-02
  0.170000E+00  0.116378E-02
  0.180000E+00  0.995389E-03
  0.190000E+00  0.868156E-03
  0.200000E+00  0.770759E-03
  0.210000E+00  0.692891E-03
  0.220000E+00  0.627372E-03
  0.230000E+00  0.570494E-03
  0.240000E+00  0.520916E-03
  0.250000E+00  0.478173E-03
  0.260000E+00  0.441511E-03
  0.270000E+00  0.409522E-03
  0.280000E+00  0.380432E-03
  0.290000E+00  0.352729E-03
  0.300000E+00  0.325655E-03
  0.310000E+00  0.299284E-03
  0.320000E+00  0.274304E-03
  0.330000E+00  0.251510E-03
  0.340000E+00  0.231422E-03
  0.350000E+00  0.214112E-03
  0.360000E+00  0.199229E-03
  0.370000E+00  0.186257E-03
  0.380000E+00  0.174688E-03
  0.390000E+00  0.164212E-03
  0.400000E+00  0.154721E-03
  0.410000E+00  0.146209E-03
  0.420000E+00  0.138665E-03
  0.430000E+00  0.132002E-03
  0.440000E+00  0.126060E-03
  0.450000E+00  0.120642E-03
  0.460000E+00  0.115595E-03
  0.470000E+00  0.110865E-03
  0.480000E+00  0.106499E-03
  0.490000E+00  0.102576E-03
  0.500000E+00  0.991059E-04
