I_abs(s)[cm^-1]/c[mg/ml]
  0.000000E+00  0.185601E-01
  0.100000E-01  0.181584E-01
  0.200000E-01  0.170144E-01
  0.300000E-01  0.152960E-01
  0.400000E-01  0.132377E-01
  0.500000E-01  0.110900E-01
  0.600000E-01  0.906715E-02
  0.700000E-01  0.731349E-02
  0.800000E-01  0.589151E-02
  0.900000E-01  0.479159E-02
  0.100000E+00  0.395733E-02
  0.110000E+00  0.331509E-02
  0.120000E+00  0.279839E-02
  0.130000E+00  0.236174E-02
  0.140000E+00  0.198272E-02
  0.150000E+00  0.165574E-02
  0.160000E+00  0.138249E-02
  0.170000E+00  0.116378E-02
  0.180000E+00  0.995389E-03
  0.190000E+00  0.868156E-03
  0.200000E+00  0.770759E-03
  0.210000E+00  0.692893E-03
  0.220000E+00  0.627377E-03
  0.230000E+00  0.570507E-03
  0.240000E+00  0.520949E-03
  0.250000E+00  0.478248E-03
  0.260000E+00  0.441670E-03
  0.270000E+00  0.409833E-03
  0.280000E+00  0.381002E-03
  0.290000E+00  0.353704E-03
  0.300000E+00  0.327220E-03
  0.310000E+00  0.301644E-03
  0.320000E+00  0.277656E-03
  0.330000E+00  0.256005E-03
  0.340000E+00  0.237135E-03
  0.350000E+00  0.221016E-03
  0.360000E+00  0.207204E-03
  0.370000E+00  0.195109E-03
  0.380000E+00  0.184186E-03
  0.390000E+00  0.174113E-03
  0.400000E+00  0.164788E-03
  0.410000E+00  0.156205E-03
  0.420000E+00  0.148336E-03
  0.430000E+00  0.141086E-03
  0.440000E+00  0.134310E-03
  0.450000E+00  0.127882E-03
  0.460000E+00  0.121772E-03
  0.470000E+00  0.116076E-03
  0.480000E+00  0.110969E-03
  0.490000E+00  0.106599E-03
  0.500000E+00  0.102958E-03
