I_abs(s)[cm^-1]/c[mg/ml]
  0.000000E+00  0.142865E-01
  0.100000E-01  0.139852E-01
  0.200000E-01  0.131265E-01
  0.300000E-01  0.118340E-01
  0.400000E-01  0.102816E-01
  0.500000E-01  0.865626E-02
  0.600000E-01  0.711996E-02
  0.700000E-01  0.578405E-02
  0.800000E-01  0.469893E-02
  0.900000E-01  0.385993E-02
  0.100000E+00  0.322515E-02
  0.110000E+00  0.273746E-02
  0.120000E+00  0.234382E-02
  0.130000E+00  0.200702E-02
  0.140000E+00  0.170860E-02
  0.150000E+00  0.144478E-02
  0.160000E+00  0.121891E-02
  0.170000E+00  0.103432E-02
  0.180000E+00  0.890117E-03
  0.190000E+00  0.780409E-03
  0.200000E+00  0.696302E-03
  0.210000E+00  0.628801E-03
  0.220000E+00  0.571173E-03
  0.230000E+00  0.519890E-03
  0.240000E+00  0.474024E-03
  0.250000E+00  0.433931E-03
  0.260000E+00  0.399898E-03
  0.270000E+00  0.371392E-03
  0.280000E+00  0.347036E-03
  0.290000E+00  0.325140E-03
  0.300000E+00  0.304359E-03
  0.310000E+00  0.284080E-03
  0.320000E+00  0.264485E-03
  0.330000E+00  0.246183E-03
  0.340000E+00  0.229791E-03
  0.350000E+00  0.215600E-03
  0.360000E+00  0.203444E-03
  0.370000E+00  0.192859E-03
  0.380000E+00  0.183264E-03
  0.390000E+00  0.174220E-03
  0.400000E+00  0.165531E-03
  0.410000E+00  0.157184E-03
  0.420000E+00  0.149242E-03
  0.430000E+00  0.141750E-03
  0.440000E+00  0.134680E-03
  0.450000E+00  0.127965E-03
  0.460000E+00  0.121569E-03
  0.470000E+00  0.115560E-03
  0.480000E+00  0.110106E-03
  0.490000E+00  0.105398E-03
  0.500000E+00  0.101515E-03
