I_abs(s)[cm^-1]/c[mg/ml]
  0.000000E+00  0.171834E-01
  0.100000E-01  0.168118E-01
  0.200000E-01  0.157512E-01
  0.300000E-01  0.141502E-01
  0.400000E-01  0.122185E-01
  0.500000E-01  0.101812E-01
  0.600000E-01  0.823588E-02
  0.700000E-01  0.652149E-02
  0.800000E-01  0.510737E-02
  0.900000E-01  0.400032E-02
  0.100000E+00  0.316439E-02
  0.110000E+00  0.254443E-02
  0.120000E+00  0.208573E-02
  0.130000E+00  0.174494E-02
  0.140000E+00  0.149209E-02
  0.150000E+00  0.130661E-02
  0.160000E+00  0.117166E-02
  0.170000E+00  0.107037E-02
  0.180000E+00  0.985532E-03
  0.190000E+00  0.902101E-03
  0.200000E+00  0.810467E-03
  0.210000E+00  0.708508E-03
  0.220000E+00  0.601046E-03
  0.230000E+00  0.497184E-03
  0.240000E+00  0.406416E-03
  0.250000E+00  0.335340E-03
  0.260000E+00  0.285871E-03
  0.270000E+00  0.255524E-03
  0.280000E+00  0.239076E-03
  0.290000E+00  0.230669E-03
  0.300000E+00  0.225590E-03
  0.310000E+00  0.221047E-03
  0.320000E+00  0.216046E-03
  0.330000E+00  0.210666E-03
  0.340000E+00  0.205254E-03
  0.350000E+00  0.199929E-03
  0.360000E+00  0.194404E-03
  0.370000E+00  0.188213E-03
  0.380000E+00  0.181006E-03
  0.390000E+00  0.172782E-03
  0.400000E+00  0.163924E-03
  0.410000E+00  0.155081E-03
  0.420000E+00  0.146954E-03
  0.430000E+00  0.140094E-03
  0.440000E+00  0.134753E-03
  0.450000E+00  0.130856E-03
  0.460000E+00  0.128051E-03
  0.470000E+00  0.125795E-03
  0.480000E+00  0.123489E-03
  0.490000E+00  0.120607E-03
  0.500000E+00  0.116788E-03
