I_abs(s)[cm^-1]/c[mg/ml]
  0.000000E+00  0.138790E-01
  0.100000E-01  0.135872E-01
  0.200000E-01  0.127531E-01
  0.300000E-01  0.114903E-01
  0.400000E-01  0.996032E-02
  0.500000E-01  0.833798E-02
  0.600000E-01  0.677901E-02
  0.700000E-01  0.539572E-02
  0.800000E-01  0.424710E-02
  0.900000E-01  0.334289E-02
  0.100000E+00  0.265767E-02
  0.110000E+00  0.214885E-02
  0.120000E+00  0.177246E-02
  0.130000E+00  0.149277E-02
  0.140000E+00  0.128491E-02
  0.150000E+00  0.113235E-02
  0.160000E+00  0.102227E-02
  0.170000E+00  0.941891E-03
  0.180000E+00  0.877458E-03
  0.190000E+00  0.815824E-03
  0.200000E+00  0.747214E-03
  0.210000E+00  0.667612E-03
  0.220000E+00  0.579221E-03
  0.230000E+00  0.488999E-03
  0.240000E+00  0.405647E-03
  0.250000E+00  0.336519E-03
  0.260000E+00  0.285391E-03
  0.270000E+00  0.251926E-03
  0.280000E+00  0.232595E-03
  0.290000E+00  0.222387E-03
  0.300000E+00  0.216642E-03
  0.310000E+00  0.212179E-03
  0.320000E+00  0.207590E-03
  0.330000E+00  0.202784E-03
  0.340000E+00  0.198206E-03
  0.350000E+00  0.194196E-03
  0.360000E+00  0.190597E-03
  0.370000E+00  0.186855E-03
  0.380000E+00  0.182317E-03
  0.390000E+00  0.176579E-03
  0.400000E+00  0.169691E-03
  0.410000E+00  0.162148E-03
  0.420000E+00  0.154715E-03
  0.430000E+00  0.148166E-03
  0.440000E+00  0.143040E-03
  0.450000E+00  0.139500E-03
  0.460000E+00  0.137327E-03
  0.470000E+00  0.135982E-03
  0.480000E+00  0.134765E-03
  0.490000E+00  0.132990E-03
  0.500000E+00  0.130131E-03
